trial_number,reaction_time,accuracy
1,420,90
2,424,100
3,355,100
4,341,90
5,380,100
6,382,100
7,384,90
8,358,90
9,365,100
10,369,100
11,379,90
12,345,100
13,340,100
14,308,90
15,358,100
16,336,90
17,332,90
18,330,100
19,330,100
20,312,90