trial_number,reaction_time,accuracy
1,441,87
2,406,93
3,466,87
4,450,93
5,448,100
6,449,100
7,454,93
8,461,100
9,457,93
10,451,93
11,440,100
12,438,93
13,430,93
14,441,100
15,402,93
16,427,87
17,439,100
18,409,93
19,405,93
20,428,100